STUDYID,USUBJID,AESEQ,AETERM,AEDECOD,AEBODSYS,AESEV,AESER,AESHOSP,AESDTH,AESLIFE,AESDISAB,AESCONG,AEREL,AESTDTC,AEENDTC,AEAWRDTC,AEREPDTC,cut_available
STUDY-042,STUDY042-101-001,1,Mild headache,HEADACHE,NERVOUS SYSTEM DISORDERS,MILD,N,N,N,N,N,N,NOT RELATED,2024-02-01,2024-02-03,2024-02-01,2024-02-02,1
STUDY-042,STUDY042-101-002,1,Acute Chest Pain requiring hospitalization,CHEST PAIN,CARDIAC DISORDERS,SEVERE,N,Y,N,N,N,N,POSSIBLY RELATED,2024-02-10T08:00,2024-02-12T16:00,2024-02-10T08:00,2024-02-12T14:00,1
STUDY-042,STUDY042-102-001,1,Nausea,NAUSEA,GASTROINTESTINAL DISORDERS,MILD,N,N,N,N,N,N,PROBABLY RELATED,2024-02-20,2024-02-24,2024-02-20,,1
STUDY-042,STUDY042-102-001,2,Jaundice with acute liver injury,JAUNDICE,HEPATOBILIARY DISORDERS,SEVERE,Y,Y,N,N,N,N,PROBABLY RELATED,2024-03-15T10:00,2024-03-25T12:00,2024-03-15T10:00,2024-03-15T18:00,1
STUDY-042,STUDY042-103-001,1,Severe contact dermatitis,DERMATITIS CONTACT,SKIN AND SUBCUTANEOUS TISSUE DISORDERS,MODERATE,N,N,N,N,N,N,NOT RELATED,2024-02-25,2024-03-05,2024-02-25,,1
STUDY-042,STUDY042-101-003,1,Femur fracture from fall,FEMUR FRACTURE,INJURY POISONING AND PROCEDURAL COMPLICATIONS,SEVERE,Y,Y,N,N,N,N,NOT RELATED,2024-05-01,2024-05-15,2024-05-01,,2
