STUDYID,USUBJID,CMSEQ,CMTRT,CMCLAS,CMDOSE,CMDOSU,CMDOSFRQ,CMROUTE,CMSTDTC,CMENDTC,cut_available
STUDY-042,STUDY042-101-001,1,Metformin,BIGUANIDES,1000,mg,QD,ORAL,2023-01-01,,1
STUDY-042,STUDY042-101-002,1,Metformin,BIGUANIDES,500,mg,BID,ORAL,2023-06-01,,1
STUDY-042,STUDY042-102-001,1,Metformin,BIGUANIDES,1000,mg,QD,ORAL,2023-09-01,,1
STUDY-042,STUDY042-102-002,1,Metformin,BIGUANIDES,1000,mg,QD,ORAL,2024-01-20,,1
STUDY-042,STUDY042-103-001,1,Prednisone,GLUCOCORTICOIDS,20,mg,QD,ORAL,2024-02-25,2024-03-02,1
STUDY-042,STUDY042-103-002,1,Glimepiride,SULFONYLUREAS,2,mg,QD,ORAL,2024-04-01,,2
