STUDYID,USUBJID,SUBJID,SITEID,AGE,AGEU,SEX,RACE,ARM,ACTARM,RFSTDTC,RFENDTC,cut_available
STUDY-042,STUDY042-101-001,001,SITE-101,54,YEARS,F,WHITE,Drug 10mg,Drug 10mg,2024-01-15,2024-06-15,1
STUDY-042,STUDY042-101-002,002,SITE-101,62,YEARS,M,WHITE,Drug 10mg,Drug 10mg,2024-01-18,2024-06-18,1
STUDY-042,STUDY042-102-001,001,SITE-102,48,YEARS,F,ASIAN,Drug 10mg,Drug 10mg,2024-02-01,2024-07-01,1
STUDY-042,STUDY042-102-002,002,SITE-102,59,YEARS,M,BLACK,Drug 10mg,Drug 10mg,2024-02-05,2024-07-05,1
STUDY-042,STUDY042-103-001,001,SITE-103,67,YEARS,M,WHITE,Placebo,Placebo,2024-02-10,2024-07-10,1
STUDY-042,STUDY042-103-002,002,SITE-103,71,YEARS,F,WHITE,Drug 10mg,Drug 10mg,2024-04-10,2024-09-10,2
STUDY-042,STUDY042-101-003,003,SITE-101,82,YEARS,M,WHITE,Placebo,Placebo,2024-04-15,2024-09-15,2
