STUDYID,USUBJID,DSSEQ,DSTERM,DSDECOD,DSCAT,DSSTDTC,cut_available
STUDY-042,STUDY042-101-001,1,STUDY COMPLETED,COMPLETED,DISPOSITION EVENT,2024-06-15,1
STUDY-042,STUDY042-101-002,1,ONGOING IN STUDY,ONGOING,DISPOSITION EVENT,2024-01-18,1
STUDY-042,STUDY042-102-001,1,DISCONTINUED DUE TO ADVERSE EVENT,ADVERSE EVENT,DISPOSITION EVENT,2024-03-16,1
STUDY-042,STUDY042-102-002,1,ONGOING IN STUDY,ONGOING,DISPOSITION EVENT,2024-02-05,1
STUDY-042,STUDY042-103-001,1,WITHDRAWAL OF CONSENT,WITHDRAWAL BY SUBJECT,DISPOSITION EVENT,2024-03-15,1
STUDY-042,STUDY042-103-002,1,ONGOING IN STUDY,ONGOING,DISPOSITION EVENT,2024-04-10,2
