STUDYID,USUBJID,EXSEQ,EXTRT,EXDOSE,EXDOSU,EXDOSFRQ,EXROUTE,EXSTDTC,EXENDTC,cut_available
STUDY-042,STUDY042-101-001,1,Drug 10mg,10,mg,QD,ORAL,2024-01-15,2024-04-15,1
STUDY-042,STUDY042-101-002,1,Drug 10mg,10,mg,QD,ORAL,2024-01-18,2024-04-18,1
STUDY-042,STUDY042-102-001,1,Drug 10mg,10,mg,QD,ORAL,2024-02-01,2024-03-16,1
STUDY-042,STUDY042-102-002,1,Drug 10mg,20,mg,QD,ORAL,2024-02-05,2024-05-05,1
STUDY-042,STUDY042-103-001,1,Placebo,0,mg,QD,ORAL,2024-02-10,2024-05-10,1
STUDY-042,STUDY042-103-002,1,Drug 10mg,10,mg,QD,ORAL,2024-04-10,2024-07-10,2
