STUDYID,USUBJID,MHSEQ,MHTERM,MHDECOD,MHCAT,MHSTDTC,cut_available
STUDY-042,STUDY042-101-001,1,Type 2 Diabetes Mellitus,TYPE 2 DIABETES MELLITUS,MEDICAL CONDITION,2018-05-10,1
STUDY-042,STUDY042-101-001,2,Essential Hypertension,HYPERTENSION,MEDICAL CONDITION,2019-11-20,1
STUDY-042,STUDY042-101-002,1,Type 2 Diabetes Mellitus,TYPE 2 DIABETES MELLITUS,MEDICAL CONDITION,2015-03-12,1
STUDY-042,STUDY042-101-002,2,Coronary Artery Disease,CORONARY ARTERY DISEASE,MEDICAL CONDITION,2020-08-15,1
STUDY-042,STUDY042-102-001,1,Type 2 Diabetes Mellitus,TYPE 2 DIABETES MELLITUS,MEDICAL CONDITION,2021-02-18,1
STUDY-042,STUDY042-102-002,1,Type 2 Diabetes Mellitus,TYPE 2 DIABETES MELLITUS,MEDICAL CONDITION,2017-09-05,1
STUDY-042,STUDY042-103-001,1,Type 2 Diabetes Mellitus,TYPE 2 DIABETES MELLITUS,MEDICAL CONDITION,2016-10-22,1
STUDY-042,STUDY042-103-002,1,Type 2 Diabetes Mellitus,TYPE 2 DIABETES MELLITUS,MEDICAL CONDITION,2019-01-30,2
STUDY-042,STUDY042-103-002,2,Chronic Kidney Disease Stage 2,CHRONIC KIDNEY DISEASE,MEDICAL CONDITION,2022-04-14,2
